subject,block,trial,condition,stimulus_type,correct_key,key_pressed,rt,transition_step,coherence,frame_count,experiment_time,wall_time,response_type,correct
001,1,1,dom,city,f,,0.0,219,1.0,1,51.607951934000084,2025-11-23 17:24:50.726,omission,0
001,1,2,dom,city,f,f,0.1632007309999608,1,0.0045662100456621,2,51.7714026320009,2025-11-23 17:24:50.889,response,1
001,1,3,dom,city,f,f,0.5796929939988331,149,0.680365296803653,3,52.99141222199978,2025-11-23 17:24:52.109,response,1
001,1,4,dom,city,f,f,0.5304447540002002,143,0.6529680365296804,4,53.72991453800023,2025-11-23 17:24:52.848,response,1
001,1,5,dom,city,f,f,0.5611269880009786,151,0.6894977168949772,5,54.51417048000076,2025-11-23 17:24:53.632,response,1
001,1,6,nondom,mountain,j,f,0.5259268379995774,154,0.7031963470319634,6,55.239512444000866,2025-11-23 17:24:54.357,response,0
001,1,7,dom,city,f,f,0.5094314250000025,131,0.5981735159817352,7,55.9416321610006,2025-11-23 17:24:55.059,response,1
001,1,8,dom,city,f,f,0.5672165859996312,136,0.6210045662100456,8,56.774801249999655,2025-11-23 17:24:55.893,response,1
001,1,9,dom,city,f,f,0.5230075359995681,160,0.730593607305936,9,57.550140023000495,2025-11-23 17:24:56.668,response,1
001,1,10,dom,city,f,f,0.5022030849995645,115,0.5251141552511416,10,58.23346807000053,2025-11-23 17:24:57.351,response,1
001,1,11,dom,city,f,f,0.42532932799986156,109,0.4977168949771689,11,58.97484644799988,2025-11-23 17:24:58.093,response,1
001,1,12,dom,city,f,f,0.4183327319988166,113,0.5159817351598174,12,59.72179126800074,2025-11-23 17:24:58.840,response,1
001,1,13,dom,city,f,f,0.5052074380000704,118,0.5388127853881278,13,60.559534560999964,2025-11-23 17:24:59.677,response,1
001,1,14,dom,city,f,f,0.47162667300108296,118,0.5388127853881278,14,61.3349485180006,2025-11-23 17:25:00.453,response,1
001,1,15,dom,city,f,f,0.4501322390005953,120,0.547945205479452,15,62.095217375001084,2025-11-23 17:25:01.213,response,1
001,1,16,nondom,mountain,j,f,0.5463714540001092,153,0.6986301369863014,16,62.94267329000104,2025-11-23 17:25:02.060,response,0
001,1,17,dom,city,f,f,0.5359012169992639,146,0.6666666666666666,17,63.67921925399969,2025-11-23 17:25:02.797,response,1
001,1,18,dom,city,f,f,0.5438945379992219,142,0.6484018264840182,18,64.44742286400106,2025-11-23 17:25:03.565,response,1
001,1,19,dom,city,f,f,0.5361370139999053,137,0.6255707762557078,19,65.21588084799987,2025-11-23 17:25:04.334,response,1
001,1,20,dom,city,f,f,0.4842811150010675,117,0.5342465753424658,20,65.94610201999967,2025-11-23 17:25:05.064,response,1
001,1,21,dom,city,f,f,0.35271562699927017,95,0.4337899543378995,21,66.60749196399956,2025-11-23 17:25:05.725,response,1
001,1,22,dom,city,f,f,0.41606720599884284,101,0.4611872146118721,22,67.39165486900129,2025-11-23 17:25:06.509,response,1
001,1,23,dom,city,f,f,0.5117490899992845,128,0.5844748858447488,23,68.31248575100108,2025-11-23 17:25:07.430,response,1
001,1,24,dom,city,f,f,0.4237063559994567,129,0.589041095890411,24,69.00790110100024,2025-11-23 17:25:08.126,response,1
001,1,25,dom,city,f,f,0.4511159840003529,111,0.5068493150684932,25,69.72935700400012,2025-11-23 17:25:08.847,response,1
001,1,26,dom,city,f,f,0.5216536410007393,116,0.5296803652968036,26,70.57560973300133,2025-11-23 17:25:09.693,response,1
001,1,27,dom,city,f,f,0.39480423999884806,120,0.547945205479452,27,71.2795648020001,2025-11-23 17:25:10.397,response,1
001,1,28,dom,city,f,f,0.42937425099989923,103,0.4703196347031963,28,72.008941469001,2025-11-23 17:25:11.127,response,1
001,1,29,dom,city,f,f,0.6646406820000266,128,0.5844748858447488,29,73.10304978800013,2025-11-23 17:25:12.221,response,1
001,1,30,dom,city,f,f,0.5031771619997016,153,0.6986301369863014,30,73.88178835899998,2025-11-23 17:25:13.000,response,1
001,1,31,dom,city,f,f,0.5337516330000653,106,0.4840182648401826,31,74.61697206099961,2025-11-23 17:25:13.735,response,1
001,1,32,dom,city,f,f,0.47974068599978636,120,0.547945205479452,32,75.43332656300117,2025-11-23 17:25:14.551,response,1
001,1,33,dom,city,f,f,0.576146550998601,152,0.6940639269406392,33,76.3068025900011,2025-11-23 17:25:15.425,response,1
001,1,34,nondom,mountain,j,f,0.6172762389996933,167,0.7625570776255708,34,77.13693617700119,2025-11-23 17:25:16.255,response,0
001,1,35,dom,city,f,f,0.5661538299991662,141,0.6438356164383562,35,77.86416185400049,2025-11-23 17:25:16.982,response,1
001,1,36,dom,city,f,f,0.5088656629995967,146,0.6666666666666666,36,78.61128607700084,2025-11-23 17:25:17.729,response,1
001,1,37,nondom,mountain,j,f,0.5690993539992633,150,0.684931506849315,37,79.40017316800004,2025-11-23 17:25:18.518,response,0
001,1,38,dom,city,f,f,0.44773831400016206,120,0.547945205479452,38,80.05539086099998,2025-11-23 17:25:19.173,response,1
001,1,39,dom,city,f,f,0.5085598559999198,139,0.634703196347032,39,80.87226581899995,2025-11-23 17:25:19.990,response,1
001,1,40,nondom,mountain,j,f,0.49946396100131096,114,0.5205479452054794,40,81.6152434329997,2025-11-23 17:25:20.733,response,0
001,1,41,dom,city,f,,0.0,219,1.0,41,82.7217972110011,2025-11-23 17:25:21.840,omission,0
001,2,1,dom,city,f,,0.0,219,1.0,42,88.1602012530002,2025-11-23 17:25:27.278,omission,0
001,2,2,dom,city,f,,0.0,219,1.0,43,88.9168486540002,2025-11-23 17:25:28.035,omission,0
001,2,3,dom,city,f,,0.0,219,1.0,44,89.62091802000032,2025-11-23 17:25:28.739,omission,0
001,2,4,dom,city,f,,0.0,219,1.0,45,90.50749085700045,2025-11-23 17:25:29.625,omission,0
001,2,5,dom,city,f,,0.0,219,1.0,46,91.2432130140005,2025-11-23 17:25:30.361,omission,0
001,2,6,dom,city,f,,0.0,219,1.0,47,91.95938143800049,2025-11-23 17:25:31.077,omission,0
001,2,7,dom,city,f,,0.0,219,1.0,48,92.68713768500129,2025-11-23 17:25:31.805,omission,0
001,2,8,dom,city,f,,0.0,219,1.0,49,93.41707125799985,2025-11-23 17:25:32.535,omission,0
001,2,9,dom,city,f,,0.0,219,1.0,50,94.1239867130007,2025-11-23 17:25:33.242,omission,0
001,2,10,dom,city,f,,0.0,219,1.0,51,94.91578385499997,2025-11-23 17:25:34.034,omission,0
001,2,11,dom,city,f,,0.0,219,1.0,52,95.72196559700023,2025-11-23 17:25:34.840,omission,0
001,2,12,dom,city,f,,0.0,219,1.0,53,96.40888336900025,2025-11-23 17:25:35.527,omission,0
001,2,13,dom,city,f,,0.0,219,1.0,54,97.20085466300043,2025-11-23 17:25:36.319,omission,0
001,2,14,dom,city,f,,0.0,219,1.0,55,97.97422413599998,2025-11-23 17:25:37.092,omission,0
001,2,15,dom,city,f,,0.0,219,1.0,56,98.74182675799966,2025-11-23 17:25:37.860,omission,0
001,2,16,dom,city,f,,0.0,219,1.0,57,99.51330163700004,2025-11-23 17:25:38.631,omission,0
001,2,17,dom,city,f,,0.0,219,1.0,58,100.29475032200025,2025-11-23 17:25:39.413,omission,0
001,2,18,dom,city,f,,0.0,219,1.0,59,100.98389216400028,2025-11-23 17:25:40.102,omission,0
001,2,19,dom,city,f,,0.0,219,1.0,60,101.75292875500054,2025-11-23 17:25:40.871,omission,0
